# near-IR sky background 0.9-5.6um
# 1.6mm H2O, sec z = 1.5, middle of night (low OH)
#  
# Modification of original spectrum from Tom Geballe
# 22Aug00 - converted to units of nm from um : Phil Puxley
# Fudged at K
#
#  Wavelength    Flux density
#  (nm)  (ph/sec/nm/arcsec2/m2)

   900.0       4.26027
   900.5       4.93219
   901.0       3.98241
   901.5       3.13729
   902.0       3.11812
   902.5       3.12799
   903.0       3.16702
   903.5       3.43545
   904.0       3.69053
   904.5       3.74808
   905.0       3.99647
   905.5       3.83792
   906.0         3.392
   906.5       3.18804
   907.0       3.10796
   907.5       3.08157
   908.0        3.1154
   908.5       3.12166
   909.0        3.2107
   909.5       3.30787
   910.0       3.35073
   910.5       3.40368
   911.0       3.28275
   911.5       3.18082
   912.0       3.14324
   912.5       3.14822
   913.0       3.11064
   913.5        3.0471
   914.0       3.07913
   914.5       3.16698
   915.0       3.17335
   915.5       3.08986
   916.0       3.12014
   916.5        3.2289
   917.0       3.19073
   917.5       3.08586
   918.0       3.08596
   918.5        3.1373
   919.0        3.1672
   919.5       3.16943
   920.0       3.17818
   920.5       3.20469
   921.0        3.1981
   921.5       3.18212
   922.0       3.18339
   922.5       3.20399
   923.0       3.20173
   923.5       3.18254
   924.0       3.16569
   924.5       3.15676
   925.0       3.15359
   925.5        3.1648
   926.0       3.16736
   926.5       3.16711
   927.0       3.17444
   927.5       3.14054
   928.0       3.07643
   928.5        3.0528
   929.0        3.0488
   929.5       3.00474
   930.0       3.02042
   930.5       4.40336
   931.0       7.03508
   931.5       8.09554
   932.0       5.66335
   932.5       6.19949
   933.0       4.65274
   933.5       3.17536
   934.0        3.2341
   934.5       2.57484
   935.0       2.40938
   935.5       2.40968
   936.0       2.30615
   936.5       2.45316
   937.0       3.21709
   937.5       6.53644
   938.0       8.88525
   938.5       6.55286
   939.0       5.33589
   939.5       4.39171
   940.0       3.58257
   940.5       3.99169
   941.0       3.33327
   941.5       3.23942
   942.0        4.2193
   942.5       4.23964
   943.0       2.86736
   943.5       4.11712
   944.0       6.16124
   944.5       5.04817
   945.0       3.86263
   945.5       3.58068
   946.0       4.22056
   946.5        3.5755
   947.0       3.01553
   947.5       5.86209
   948.0       8.58075
   948.5       4.93115
   949.0       2.79123
   949.5       2.62775
   950.0        3.1732
   950.5       4.06317
   951.0       3.78757
   951.5       4.43268
   952.0       5.93077
   952.5       5.25365
   953.0       3.40557
   953.5       2.78276
   954.0       2.74629
   954.5       2.64704
   955.0       3.24459
   955.5       3.79772
   956.0       3.24698
   956.5       3.97507
   957.0       4.98619
   957.5       4.15039
   958.0       2.82932
   958.5        2.7241
   959.0       2.65741
   959.5       2.63577
   960.0       2.76088
   960.5        3.1021
   961.0       3.40712
   961.5       3.31327
   962.0       3.56844
   962.5       3.82269
   963.0       3.32633
   963.5        2.8836
   964.0       2.79453
   964.5       2.78128
   965.0       2.85888
   965.5       3.03266
   966.0       3.12422
   966.5       3.35337
   967.0       3.85241
   967.5       3.84598
   968.0        4.5435
   968.5       5.33808
   969.0       4.66808
   969.5       5.05612
   970.0       6.61379
   970.5       5.63808
   971.0       4.54389
   971.5       5.88244
   972.0       7.52428
   972.5       6.73536
   973.0       4.20532
   973.5       3.81572
   974.0       4.68392
   974.5       3.96354
   975.0       3.09006
   975.5       2.93939
   976.0       2.88109
   976.5       2.90309
   977.0       2.95118
   977.5       2.96813
   978.0       2.94217
   978.5       4.39518
   979.0       12.1168
   979.5       17.8776
   980.0       13.1174
   980.5       6.65142
   981.0       5.00879
   981.5       4.60349
   982.0       3.75411
   982.5       3.20311
   983.0       3.37888
   983.5       3.19972
   984.0       3.00371
   984.5       4.30896
   985.0       5.93845
   985.5       4.79099
   986.0       3.21462
   986.5       3.12238
   987.0       8.15847
   987.5       13.2664
   988.0       8.01964
   988.5       3.04812
   989.0       3.94945
   989.5       5.89165
   990.0       5.82142
   990.5       3.88108
   991.0       5.80698
   991.5       11.2753
   992.0       10.8429
   992.5         5.397
   993.0       2.95539
   993.5       3.06312
   994.0       5.86442
   994.5       12.6218
   995.0       14.2851
   995.5       10.7619
   996.0       12.9385
   996.5        12.889
   997.0       7.09669
   997.5       4.59723
   998.0       3.79928
   998.5       2.99367
   999.0       2.93951
   999.5       3.24986
  1000.0       4.00868
  1000.5       4.20165
  1001.0      10.05131
  1001.5       17.2615
  1002.0       11.7785
  1002.5       6.79204
  1003.0       6.80593
  1003.5       4.49659
  1004.0       3.76223
  1004.5       4.56335
  1005.0       3.89759
  1005.5       3.50407
  1006.0       4.82596
  1006.5       5.77098
  1007.0       5.12416
  1007.5       4.24286
  1008.0       6.99871
  1008.5      10.45058
  1009.0       6.73385
  1009.5       3.12687
  1010.0       4.31721
  1010.5       5.82011
  1011.0        4.7234
  1011.5       3.17852
  1012.0       6.11316
  1012.5       10.8351
  1013.0       8.90531
  1013.5       4.49009
  1014.0       3.12338
  1014.5       3.30322
  1015.0        5.0017
  1015.5       7.26311
  1016.0       7.04071
  1016.5       5.48989
  1017.0      10.55259
  1017.5       16.3355
  1018.0       10.7735
  1018.5       8.58727
  1019.0       13.2444
  1019.5       12.0677
  1020.0       8.13526
  1020.5       9.44067
  1021.0         15.71
  1021.5       18.3978
  1022.0        9.8437
  1022.5        5.9682
  1023.0       9.98258
  1023.5       9.34517
  1024.0       4.88984
  1024.5       2.84013
  1025.0       2.83916
  1025.5       2.83717
  1026.0       2.83762
  1026.5       2.90372
  1027.0       3.38246
  1027.5       3.74863
  1028.0       5.39739
  1028.5       27.4245
  1029.0       48.3034
  1029.5       32.3453
  1030.0       16.7664
  1030.5      10.28838
  1031.0       6.79893
  1031.5       6.28303
  1032.0       3.90009
  1032.5       3.60037
  1033.0        4.1718
  1033.5       3.52893
  1034.0       3.17494
  1034.5        7.4297
  1035.0       12.0097
  1035.5       7.97716
  1036.0       3.48483
  1036.5        2.9528
  1037.0       15.8691
  1037.5       30.7878
  1038.0       18.0563
  1038.5       3.88457
  1039.0       3.12607
  1039.5       8.40969
  1040.0       13.3186
  1040.5       7.75232
  1041.0       2.82558
  1041.5        15.371
  1042.0       31.1161
  1042.5       20.3436
  1043.0       5.37731
  1043.5       2.92257
  1044.0       2.79712
  1044.5       3.79741
  1045.0       7.91867
  1045.5      10.04691
  1046.0       5.78824
  1046.5       9.56264
  1047.0       19.8609
  1047.5       15.8512
  1048.0       5.79941
  1048.5       2.75288
  1049.0        2.7504
  1049.5        2.7619
  1050.0       2.78003
  1050.5       4.18989
  1051.0       6.48877
  1051.5       5.82399
  1052.0       5.69392
  1052.5       9.75647
  1053.0      10.20914
  1053.5       5.31035
  1054.0       2.73271
  1054.5       2.73098
  1055.0       2.72922
  1055.5       2.72744
  1056.0       2.72564
  1056.5       2.73042
  1057.0       3.56315
  1057.5       4.47763
  1058.0       3.92158
  1058.5       4.78877
  1059.0       5.96206
  1059.5       4.15136
  1060.0       2.72442
  1060.5       2.72071
  1061.0       2.71145
  1061.5        2.7056
  1062.0       2.70355
  1062.5       2.70136
  1063.0        2.6994
  1063.5       2.74563
  1064.0       3.01059
  1064.5       3.19549
  1065.0       3.37598
  1065.5       3.65148
  1066.0       3.18267
  1066.5       2.70764
  1067.0       2.68422
  1067.5       2.68086
  1068.0       2.79717
  1068.5       3.55917
  1069.0       4.51342
  1069.5        6.0107
  1070.0       7.75922
  1070.5        7.3339
  1071.0       9.91308
  1071.5         12.97
  1072.0         9.852
  1072.5       13.9455
  1073.0       21.4913
  1073.5       14.9481
  1074.0       8.52222
  1074.5       11.5216
  1075.0       20.0478
  1075.5       25.1758
  1076.0       12.5722
  1076.5       2.72638
  1077.0       6.70443
  1077.5       10.8478
  1078.0       6.80971
  1078.5       2.76659
  1079.0       2.65227
  1079.5       2.66126
  1080.0       2.66069
  1080.5        2.6619
  1081.0       2.64296
  1081.5       2.62495
  1082.0       2.62722
  1082.5       6.71981
  1083.0       39.1475
  1083.5       65.1771
  1084.0       43.5015
  1084.5       25.0131
  1085.0       13.5302
  1085.5       7.16636
  1086.0      10.00239
  1086.5       6.01997
  1087.0       2.85839
  1087.5       3.99734
  1088.0       4.80378
  1088.5       3.57461
  1089.0       3.69748
  1089.5      10.09377
  1090.0       14.7911
  1090.5       8.20445
  1091.0       2.80823
  1091.5       2.59563
  1092.0       19.4416
  1092.5       40.5305
  1093.0       27.8615
  1093.5       6.89424
  1094.0       2.61634
  1094.5       9.04895
  1095.0       17.2713
  1095.5       12.1061
  1096.0       3.97351
  1096.5        2.7745
  1097.0       24.6121
  1097.5       47.8977
  1098.0        25.406
  1098.5       3.44058
  1099.0       2.52557
  1099.5        2.5006
  1100.0        2.9611
  1100.5       9.21329
  1101.0       14.6674
  1101.5       8.36058
  1102.0       3.09371
  1102.5       17.9977
  1103.0       32.7978
  1103.5       17.4509
  1104.0       2.70371
  1104.5       2.46194
  1105.0       2.48501
  1105.5       2.47734
  1106.0       2.44293
  1106.5       4.12617
  1107.0       7.89594
  1107.5        7.8201
  1108.0       4.28182
  1108.5       9.72539
  1109.0       17.4946
  1109.5       9.95345
  1110.0       2.64284
  1110.5       2.38163
  1111.0       2.32981
  1111.5       2.34192
  1112.0       2.39887
  1112.5       2.35824
  1113.0       2.21536
  1113.5       3.26698
  1114.0       4.80284
  1114.5       3.91868
  1115.0       4.21802
  1115.5       6.65168
  1116.0       4.93203
  1116.5       1.96984
  1117.0       1.75732
  1117.5       1.96536
  1118.0       2.08978
  1118.5       1.97735
  1119.0       1.80446
  1119.5       1.82325
  1120.0       1.89444
  1120.5         1.962
  1121.0       2.48342
  1121.5         2.594
  1122.0       2.03587
  1122.5       2.04589
  1123.0       2.80961
  1123.5        2.1268
  1124.0       1.80344
  1124.5       2.03557
  1125.0       1.83618
  1125.5       1.42822
  1126.0       1.54639
  1126.5       1.85974
  1127.0       1.96316
  1127.5       1.78737
  1128.0       1.79699
  1128.5       2.75876
  1129.0       4.09412
  1129.5        5.4585
  1130.0       6.86153
  1130.5       9.24708
  1131.0       12.9799
  1131.5       13.1045
  1132.0       9.59555
  1132.5       14.6932
  1133.0       23.9349
  1133.5      10.15853
  1134.0       4.59617
  1134.5       5.08384
  1135.0       8.69173
  1135.5       24.1901
  1136.0       9.81191
  1136.5       2.04643
  1137.0       5.14814
  1137.5       9.01462
  1138.0       8.81561
  1138.5       3.55417
  1139.0       2.26166
  1139.5        2.2494
  1140.0       2.08964
  1140.5       2.05461
  1141.0       1.96833
  1141.5       1.99429
  1142.0       2.07405
  1142.5       2.16437
  1143.0       4.49021
  1143.5       40.1342
  1144.0       61.6624
  1144.5       35.1493
  1145.0       22.0794
  1145.5       15.3234
  1146.0       5.94369
  1146.5       6.32828
  1147.0       7.82343
  1147.5       3.98974
  1148.0        2.2572
  1148.5       3.68771
  1149.0       4.37706
  1149.5       3.06555
  1150.0       2.91773
  1150.5       10.6585
  1151.0        13.809
  1151.5       8.02794
  1152.0       2.45361
  1152.5       1.98826
  1153.0       5.39918
  1153.5       28.8207
  1154.0       40.9578
  1154.5       20.4689
  1155.0       2.27738
  1155.5       2.26784
  1156.0      10.54398
  1156.5       20.1719
  1157.0        11.983
  1157.5        2.4437
  1158.0       2.13677
  1158.5       22.2266
  1159.0       45.4602
  1159.5         36.31
  1160.0       9.10025
  1160.5       2.14935
  1161.0       2.21573
  1161.5       2.24449
  1162.0       5.32035
  1162.5       12.6798
  1163.0       15.6238
  1163.5       7.05453
  1164.0        2.3691
  1164.5       20.5243
  1165.0       39.8356
  1165.5       23.4438
  1166.0       4.02517
  1166.5       2.25833
  1167.0        2.2685
  1167.5       2.28446
  1168.0       2.28164
  1168.5        2.2798
  1169.0       6.13717
  1169.5        10.932
  1170.0       7.95384
  1170.5       3.14505
  1171.0       10.9379
  1171.5       22.1655
  1172.0       14.2398
  1172.5       3.84504
  1173.0       2.26858
  1173.5       2.23031
  1174.0       2.18189
  1174.5       2.22771
  1175.0       2.26487
  1175.5       2.26208
  1176.0       2.29701
  1176.5       4.20969
  1177.0       6.40281
  1177.5       4.33794
  1178.0       3.82162
  1178.5       7.88936
  1179.0       9.44501
  1179.5       4.85853
  1180.0         2.249
  1180.5        2.2758
  1181.0       2.25192
  1181.5       2.16756
  1182.0       2.10746
  1182.5        2.1819
  1183.0       2.25669
  1183.5       2.26454
  1184.0       2.22288
  1184.5       2.72706
  1185.0       3.44391
  1185.5       3.11946
  1186.0       3.42887
  1186.5       4.65356
  1187.0       3.89139
  1187.5       2.48136
  1188.0       2.14194
  1188.5       2.16913
  1189.0         2.214
  1189.5       2.23587
  1190.0       2.24004
  1190.5       2.22853
  1191.0       2.22855
  1191.5       2.23609
  1192.0       2.24128
  1192.5       2.24726
  1193.0       2.27727
  1193.5       2.44152
  1194.0       2.57423
  1194.5       2.61534
  1195.0       2.80609
  1195.5       2.64983
  1196.0        2.6172
  1196.5       4.43751
  1197.0       9.81783
  1197.5        12.514
  1198.0       10.8374
  1198.5       15.7988
  1199.0       18.8337
  1199.5       12.9109
  1200.0       19.1873
  1200.5       30.7555
  1201.0        22.735
  1201.5       8.11604
  1202.0       8.56704
  1202.5       28.9963
  1203.0       40.1608
  1203.5        19.741
  1204.0       3.69024
  1204.5       2.27749
  1205.0       7.28099
  1205.5       13.6636
  1206.0       8.69253
  1206.5       2.75788
  1207.0        2.1716
  1207.5       2.16815
  1208.0       2.16781
  1208.5       2.17017
  1209.0        2.1647
  1209.5       2.16587
  1210.0       2.17595
  1210.5       2.18835
  1211.0       2.20895
  1211.5        24.364
  1212.0       70.7087
  1212.5       70.8397
  1213.0       40.7706
  1213.5       34.2128
  1214.0       19.5483
  1214.5       4.60082
  1215.0       8.80841
  1215.5       13.9615
  1216.0       7.81891
  1216.5       2.33797
  1217.0       2.50506
  1217.5       4.38079
  1218.0       5.94581
  1218.5       3.96519
  1219.0        9.1073
  1219.5       18.2113
  1220.0       12.7415
  1220.5       4.42789
  1221.0       3.18879
  1221.5       2.71277
  1222.0       4.41868
  1222.5       33.3472
  1223.0       59.8641
  1223.5       29.0156
  1224.0       2.28608
  1224.5       2.32441
  1225.0       7.33418
  1225.5       18.9641
  1226.0       20.6387
  1226.5        8.6979
  1227.0       2.14177
  1227.5       2.14562
  1228.0       23.6399
  1228.5       58.2243
  1229.0       47.5455
  1229.5        13.711
  1230.0       2.16004
  1230.5       2.14921
  1231.0       2.14905
  1231.5       2.16274
  1232.0       10.8069
  1232.5       21.0051
  1233.0       12.8538
  1233.5       3.16481
  1234.0       2.14722
  1234.5       20.3437
  1235.0       45.6614
  1235.5       32.5822
  1236.0       8.07364
  1236.5       2.13367
  1237.0       2.13179
  1237.5       2.13128
  1238.0       2.13016
  1238.5       2.12871
  1239.0       2.13549
  1239.5       7.45998
  1240.0       13.7076
  1240.5       8.64911
  1241.0       2.70844
  1241.5       5.57061
  1242.0       18.9596
  1242.5       25.6368
  1243.0       11.8314
  1243.5       2.11625
  1244.0       2.11313
  1244.5       2.11165
  1245.0       2.11033
  1245.5       2.10898
  1246.0       2.10763
  1246.5       2.10581
  1247.0       2.10434
  1247.5       3.31365
  1248.0         6.141
  1248.5       6.50751
  1249.0       3.64627
  1249.5       5.00153
  1250.0       10.8424
  1250.5       12.0632
  1251.0      10.08474
  1251.5       10.7915
  1252.0       11.1814
  1252.5        8.2489
  1253.0       4.11928
  1253.5       3.02657
  1254.0       6.09381
  1254.5        9.9519
  1255.0       11.2991
  1255.5         10.89
  1256.0       9.31829
  1256.5       6.84647
  1257.0       6.05408
  1257.5       5.53488
  1258.0       3.66476
  1258.5       5.41985
  1259.0       8.16126
  1259.5       6.35049
  1260.0       5.55399
  1260.5       7.18423
  1261.0       8.15172
  1261.5       8.04746
  1262.0      10.21697
  1262.5       17.5589
  1263.0       26.1701
  1263.5       28.6183
  1264.0       26.2557
  1264.5        22.963
  1265.0       19.5718
  1265.5       16.5105
  1266.0       10.6456
  1266.5       6.04447
  1267.0       7.32453
  1267.5      10.51225
  1268.0       17.5495
  1268.5       20.1138
  1269.0       18.9589
  1269.5       24.4224
  1270.0       20.1203
  1270.5       15.9059
  1271.0       29.7271
  1271.5       46.3594
  1272.0       47.7631
  1272.5       42.6555
  1273.0       34.8373
  1273.5       26.6119
  1274.0       16.9769
  1274.5        16.022
  1275.0       16.8454
  1275.5       15.8983
  1276.0       20.6486
  1276.5       24.4784
  1277.0       14.6708
  1277.5       17.5664
  1278.0       34.0858
  1278.5       29.5272
  1279.0       11.0105
  1279.5       7.15216
  1280.0       26.2546
  1280.5       41.5854
  1281.0        34.009
  1281.5       23.6313
  1282.0       22.1178
  1282.5       16.5434
  1283.0       13.2169
  1283.5       18.7011
  1284.0       29.2052
  1284.5       47.4973
  1285.0       59.8016
  1285.5       61.3731
  1286.0       57.8978
  1286.5       39.3938
  1287.0       13.8469
  1287.5       2.52402
  1288.0        2.0037
  1288.5         2.002
  1289.0       2.00355
  1289.5       3.07599
  1290.0       48.1257
  1290.5        97.363
  1291.0        54.345
  1291.5       23.0786
  1292.0       36.3207
  1292.5       21.8826
  1293.0       4.92163
  1293.5       5.11679
  1294.0       11.2068
  1294.5       13.3725
  1295.0       6.49555
  1295.5       1.98296
  1296.0       2.23516
  1296.5        3.7796
  1297.0       5.74523
  1297.5       4.98797
  1298.0       11.4958
  1298.5        20.651
  1299.0       12.1249
  1299.5       2.71937
  1300.0       2.29095
  1300.5       2.82666
  1301.0       3.02362
  1301.5       25.9865
  1302.0       58.3937
  1302.5       41.1587
  1303.0       9.58817
  1303.5       1.89932
  1304.0       1.90742
  1304.5       7.12428
  1305.0       20.4337
  1305.5       22.1638
  1306.0        9.1951
  1306.5       1.87962
  1307.0       1.87771
  1307.5        2.4745
  1308.0       35.5553
  1308.5       74.6935
  1309.0       38.9499
  1309.5       3.11873
  1310.0       1.88912
  1310.5       1.90038
  1311.0       1.90425
  1311.5       1.90965
  1312.0       6.15593
  1312.5       16.7124
  1313.0       18.8279
  1313.5       7.84454
  1314.0       1.80735
  1314.5       1.84111
  1315.0       20.3073
  1315.5        47.022
  1316.0       37.2511
  1316.5       9.94921
  1317.0       1.82886
  1317.5       1.85796
  1318.0        1.8521
  1318.5       1.80913
  1319.0       1.80548
  1319.5       1.79894
  1320.0         1.766
  1320.5       7.67584
  1321.0       14.9982
  1321.5       8.85938
  1322.0       2.45953
  1322.5       1.80297
  1323.0       12.5865
  1323.5       28.7063
  1324.0       19.7566
  1324.5        5.2754
  1325.0       1.82873
  1325.5        1.7968
  1326.0        1.8118
  1326.5       1.81187
  1327.0       1.77464
  1327.5       1.76914
  1328.0       1.72929
  1328.5       1.65729
  1329.0         1.655
  1329.5       3.83972
  1330.0       7.03162
  1330.5       5.94307
  1331.0       2.56889
  1331.5       1.92055
  1332.0        7.7218
  1332.5       12.8792
  1333.0       7.99287
  1333.5       1.76075
  1334.0       1.60788
  1334.5       1.69024
  1335.0       1.71697
  1335.5       1.69003
  1336.0       1.61633
  1336.5       1.67273
  1337.0       1.64106
  1337.5       1.56889
  1338.0       1.61199
  1338.5       1.68354
  1339.0       1.67963
  1339.5       2.70429
  1340.0       3.73055
  1340.5       2.70087
  1341.0       1.83526
  1341.5       3.11184
  1342.0       5.93391
  1342.5       4.58722
  1343.0       2.21538
  1343.5       1.58806
  1344.0       1.36388
  1344.5        1.3092
  1345.0       1.47173
  1345.5       1.50419
  1346.0       1.44766
  1346.5       1.40371
  1347.0         1.413
  1347.5       1.18304
  1348.0      0.903036
  1348.5      0.932211
  1349.0       1.15406
  1349.5       1.29497
  1350.0          1.08
  1350.5      0.966673
  1351.0       1.44963
  1351.5       1.08107
  1352.0       1.07461
  1352.5       1.19602
  1353.0      0.936998
  1353.5      0.730638
  1354.0      0.598233
  1354.5      0.359024
  1355.0      0.299231
  1355.5       0.39664
  1356.0      0.501788
  1356.5      0.663965
  1357.0      0.515147
  1357.5      0.352812
  1358.0      0.377577
  1358.5      0.371345
  1359.0      0.360868
  1359.5      0.282346
  1360.0      0.320927
  1360.5      0.276612
  1361.0      0.119613
  1361.5     0.0482291
  1362.0     0.0277257
  1362.5      0.109918
  1363.0      0.398925
  1363.5      0.565956
  1364.0      0.401276
  1364.5      0.132269
  1365.0     0.0931716
  1365.5      0.256603
  1366.0       3.17782
  1366.5       6.61061
  1367.0       4.55782
  1367.5       2.66103
  1368.0      0.567012
  1368.5       0.58556
  1369.0       6.37186
  1369.5       8.65132
  1370.0      0.773206
  1370.5      0.462927
  1371.0       0.75846
  1371.5       7.85394
  1372.0       4.75718
  1372.5       2.05521
  1373.0      0.579043
  1373.5      0.628867
  1374.0       1.79365
  1374.5       2.98207
  1375.0       2.95257
  1375.5       2.87362
  1376.0      0.673344
  1376.5      0.598167
  1377.0       0.57333
  1377.5      0.881459
  1378.0      0.916538
  1378.5        0.5194
  1379.0      0.487852
  1379.5      0.718004
  1380.0      0.527292
  1380.5      0.182068
  1381.0      0.192434
  1381.5       3.38838
  1382.0        9.0016
  1382.5       3.71841
  1383.0       1.42747
  1383.5       1.77129
  1384.0       5.07202
  1384.5       6.75388
  1385.0      0.655463
  1385.5       0.39235
  1386.0       1.13831
  1386.5       2.67083
  1387.0       6.30875
  1387.5       2.51069
  1388.0      0.300097
  1388.5      0.493747
  1389.0       1.01727
  1389.5       1.77152
  1390.0       1.89271
  1390.5       5.99878
  1391.0       7.26641
  1391.5       5.82356
  1392.0      0.790132
  1392.5      0.228866
  1393.0      0.540808
  1393.5      0.845031
  1394.0      0.951562
  1394.5       8.94402
  1395.0       2.95309
  1395.5       1.00672
  1396.0      0.568999
  1396.5      0.218732
  1397.0      0.543559
  1397.5       1.15431
  1398.0       7.41698
  1398.5       13.9849
  1399.0       8.16297
  1399.5      0.674668
  1400.0      0.297832
  1400.5      0.193329
  1401.0      0.443752
  1401.5       2.35056
  1402.0       25.4703
  1402.5         38.69
  1403.0       6.82068
  1403.5       1.04232
  1404.0       2.66047
  1404.5       2.62133
  1405.0      0.569064
  1405.5       1.77965
  1406.0         5.531
  1406.5       7.70003
  1407.0       2.23436
  1407.5       2.45147
  1408.0      10.19687
  1408.5       21.1572
  1409.0       5.96545
  1409.5       1.63042
  1410.0       17.1322
  1410.5       29.2297
  1411.0       15.8604
  1411.5       2.73557
  1412.0      0.835698
  1412.5       2.95053
  1413.0       46.0375
  1413.5       51.2622
  1414.0       12.0682
  1414.5      0.373012
  1415.0      0.471979
  1415.5        4.7539
  1416.0       28.7953
  1416.5       38.2716
  1417.0       11.5671
  1417.5       0.99237
  1418.0       33.3086
  1418.5       83.7986
  1419.0       17.4077
  1419.5       9.66915
  1420.0       5.72093
  1420.5      0.890568
  1421.0      0.995485
  1421.5       1.12141
  1422.0       11.9967
  1422.5        27.989
  1423.0       16.5878
  1423.5        4.8644
  1424.0      0.815686
  1424.5       1.11902
  1425.0       1.11804
  1425.5      0.924382
  1426.0       2.80186
  1426.5       7.54065
  1427.0       4.39516
  1427.5       1.31126
  1428.0      0.832343
  1428.5       2.29448
  1429.0       7.69442
  1429.5       11.7947
  1430.0       4.56126
  1430.5       1.30022
  1431.0       1.00827
  1431.5      0.696364
  1432.0      0.613152
  1432.5      0.632993
  1433.0      0.909718
  1433.5       18.5382
  1434.0       118.978
  1434.5       142.635
  1435.0        153.75
  1435.5       78.1244
  1436.0       49.7366
  1436.5        13.923
  1437.0       16.0097
  1437.5       16.5161
  1438.0       8.41297
  1438.5       2.57136
  1439.0         3.486
  1439.5       4.27841
  1440.0       9.61869
  1440.5       7.01499
  1441.0       2.80595
  1441.5       1.06592
  1442.0       1.84502
  1442.5       2.42151
  1443.0       1.67293
  1443.5       1.51679
  1444.0       1.26869
  1444.5       1.22591
  1445.0       1.10621
  1445.5      0.759222
  1446.0       2.45823
  1446.5       38.3602
  1447.0       50.2312
  1447.5       28.5776
  1448.0       1.40529
  1448.5       1.34194
  1449.0       1.37627
  1449.5       1.47871
  1450.0       1.46068
  1450.5      0.971756
  1451.0       7.48194
  1451.5       117.517
  1452.0       185.933
  1452.5       95.8264
  1453.0       2.03036
  1453.5       1.42819
  1454.0       1.44575
  1454.5       1.36641
  1455.0       1.18301
  1455.5        4.5606
  1456.0        50.058
  1456.5       85.3164
  1457.0       38.2881
  1457.5       1.35435
  1458.0       1.36743
  1458.5       1.46048
  1459.0       1.47819
  1459.5        5.6021
  1460.0       110.093
  1460.5       192.154
  1461.0       118.116
  1461.5       2.89357
  1462.0       1.40875
  1462.5       1.37501
  1463.0       1.20901
  1463.5       1.36299
  1464.0       1.69017
  1464.5       1.74053
  1465.0       1.46202
  1465.5       1.86086
  1466.0       28.1768
  1466.5        48.123
  1467.0       24.5712
  1467.5       2.72769
  1468.0       1.91571
  1468.5       1.68091
  1469.0       19.7081
  1469.5       65.5912
  1470.0       121.248
  1470.5       41.5129
  1471.0        2.6937
  1471.5       3.99012
  1472.0       2.13147
  1472.5       1.00161
  1473.0       1.38933
  1473.5       12.0478
  1474.0        22.898
  1474.5       14.9761
  1475.0       8.36663
  1475.5       13.3481
  1476.0        6.3816
  1476.5      10.18386
  1477.0       19.6029
  1477.5       27.0429
  1478.0       38.0627
  1478.5       72.3106
  1479.0       32.4518
  1479.5       29.1432
  1480.0       75.6028
  1480.5        44.173
  1481.0       21.5724
  1481.5       2.65319
  1482.0       1.13583
  1482.5       26.1086
  1483.0       106.782
  1483.5       139.029
  1484.0        53.718
  1484.5       1.26883
  1485.0       1.32679
  1485.5       3.64946
  1486.0       35.1928
  1486.5       55.7812
  1487.0       26.8341
  1487.5       1.41597
  1488.0       45.1897
  1488.5       158.107
  1489.0       177.348
  1489.5        54.159
  1490.0       3.13081
  1490.5       15.5632
  1491.0       23.6391
  1491.5       9.76751
  1492.0        1.4298
  1492.5       27.2466
  1493.0       65.9075
  1493.5        54.035
  1494.0       13.2957
  1494.5       1.42672
  1495.0       1.38973
  1495.5        1.3917
  1496.0       1.39187
  1496.5       1.38267
  1497.0       1.43353
  1497.5       1.44908
  1498.0       1.41918
  1498.5       1.43364
  1499.0         1.447
  1499.5       1.44626
  1500.0       2.65318
  1500.5       4.45329
  1501.0       3.70001
  1501.5       1.98507
  1502.0       3.86724
  1502.5       7.04572
  1503.0       4.83102
  1503.5       1.91284
  1504.0       1.35996
  1504.5       14.2042
  1505.0       311.023
  1505.5       647.155
  1506.0       358.371
  1506.5       155.397
  1507.0       206.076
  1507.5       92.8525
  1508.0       16.0122
  1508.5       44.9531
  1509.0       56.5494
  1509.5       25.0031
  1510.0       2.10167
  1510.5       4.80253
  1511.0       13.3997
  1511.5       18.3887
  1512.0       8.68491
  1512.5       1.48219
  1513.0       1.83798
  1513.5       2.46235
  1514.0       4.15483
  1514.5       6.05131
  1515.0       4.52353
  1515.5       2.25925
  1516.0       1.56313
  1516.5        1.4417
  1517.0       1.47179
  1517.5       1.59969
  1518.0       41.8126
  1518.5        110.09
  1519.0       94.3312
  1519.5       27.1919
  1520.0       1.45165
  1520.5       1.45272
  1521.0       1.45612
  1521.5       1.45863
  1522.0       1.47993
  1522.5         1.538
  1523.0       1.80167
  1523.5       198.141
  1524.0       433.273
  1524.5       247.434
  1525.0       26.2117
  1525.5       1.44306
  1526.0        1.4455
  1526.5       1.49476
  1527.0       1.54117
  1527.5       1.51588
  1528.0       35.6151
  1528.5       119.688
  1529.0       134.086
  1529.5       49.2106
  1530.0       1.43747
  1530.5        1.4375
  1531.0       1.43498
  1531.5       1.43256
  1532.0       1.43215
  1532.5       121.049
  1533.0       357.872
  1533.5       345.513
  1534.0       110.272
  1534.5       1.42154
  1535.0       1.41878
  1535.5       1.41873
  1536.0       1.42028
  1536.5       1.42193
  1537.0        1.4251
  1537.5       1.43099
  1538.0       1.44368
  1538.5       1.96111
  1539.0       60.3939
  1539.5       124.215
  1540.0         64.68
  1540.5       4.33872
  1541.0       1.78078
  1541.5       1.54772
  1542.0       1.45826
  1542.5       89.8409
  1543.0       243.848
  1543.5        214.42
  1544.0       62.3433
  1544.5        1.9101
  1545.0       1.41437
  1545.5       4.37283
  1546.0       9.40016
  1546.5       8.49657
  1547.0       6.19666
  1547.5       6.62487
  1548.0       3.82512
  1548.5       1.41552
  1549.0        1.4456
  1549.5       17.3148
  1550.0       37.1062
  1550.5       53.8031
  1551.0        71.181
  1551.5       45.4208
  1552.0       16.6874
  1552.5       6.93083
  1553.0       2.92834
  1553.5       67.6921
  1554.0       179.203
  1554.5       166.311
  1555.0       61.8416
  1555.5       8.44738
  1556.0       1.70845
  1556.5       23.7866
  1557.0       47.2853
  1557.5        24.443
  1558.0       2.01792
  1558.5       1.39129
  1559.0       46.6052
  1559.5       147.509
  1560.0        155.45
  1560.5       54.0671
  1561.0       1.38636
  1561.5       1.38607
  1562.0       1.39223
  1562.5       42.0947
  1563.0         97.31
  1563.5       66.4043
  1564.0       13.1319
  1564.5       4.13267
  1565.0       139.322
  1565.5       288.058
  1566.0       155.549
  1566.5        12.031
  1567.0       1.37499
  1567.5       1.37247
  1568.0       1.36827
  1568.5       1.36174
  1569.0       1.35169
  1569.5       22.5195
  1570.0        65.886
  1570.5       65.5491
  1571.0       22.0583
  1571.5       1.27937
  1572.0        1.2726
  1572.5       1.27096
  1573.0       1.27426
  1573.5       1.28264
  1574.0       1.29658
  1574.5       1.31575
  1575.0       1.39817
  1575.5       4.64713
  1576.0       8.00181
  1576.5       4.80526
  1577.0       1.48719
  1577.5       4.77414
  1578.0       10.9362
  1578.5       9.78445
  1579.0       3.69342
  1579.5       1.29816
  1580.0       1.30338
  1580.5       1.30886
  1581.0       1.31442
  1581.5       1.31972
  1582.0       1.71198
  1582.5        121.98
  1583.0       483.764
  1583.5       611.735
  1584.0       290.734
  1584.5       172.637
  1585.0       202.605
  1585.5       79.7734
  1586.0      10.34886
  1586.5       47.8537
  1587.0       77.6485
  1587.5       36.1863
  1588.0        1.5255
  1588.5       2.73667
  1589.0      10.48315
  1589.5       20.7069
  1590.0       17.8068
  1590.5       6.24792
  1591.0       2.37812
  1591.5       3.67183
  1592.0       3.22933
  1592.5       3.82088
  1593.0       5.71927
  1593.5       4.85393
  1594.0       2.32979
  1594.5       1.32805
  1595.0       1.32756
  1595.5       1.32679
  1596.0       1.37791
  1596.5       35.1227
  1597.0        109.32
  1597.5       114.189
  1598.0       39.6291
  1598.5       1.31333
  1599.0       1.30286
  1599.5        1.2913
  1600.0       1.27757
  1600.5       1.26287
  1601.0        1.2598
  1601.5        1.2796
  1602.0       1.71759
  1602.5       200.988
  1603.0       445.128
  1603.5       245.344
  1604.0       23.6041
  1604.5       1.42156
  1605.0       1.38328
  1605.5       1.55115
  1606.0       1.62611
  1606.5        1.4069
  1607.0       4.04961
  1607.5        88.215
  1608.0       174.957
  1608.5       85.5621
  1609.0       2.42289
  1609.5       1.24329
  1610.0       1.24646
  1610.5       1.25072
  1611.0       1.25596
  1611.5       1.26136
  1612.0        51.164
  1612.5       302.969
  1613.0       462.932
  1613.5        201.19
  1614.0       1.33898
  1614.5       1.28725
  1615.0       1.28713
  1615.5       1.28688
  1616.0       1.28704
  1616.5       1.28673
  1617.0       1.28667
  1617.5       1.28686
  1618.0        1.2866
  1618.5       4.41919
  1619.0       73.4958
  1619.5       140.955
  1620.0        68.144
  1620.5       1.79324
  1621.0       1.32822
  1621.5       1.31135
  1622.0       1.29612
  1622.5       3.60981
  1623.0       163.188
  1623.5        337.67
  1624.0       178.027
  1624.5       11.3031
  1625.0       1.71342
  1625.5       1.51384
  1626.0       1.36146
  1626.5       2.44691
  1627.0       3.73264
  1627.5       3.24435
  1628.0       2.72473
  1628.5       1.94745
  1629.0       1.27832
  1629.5       4.32073
  1630.0       9.89022
  1630.5       9.07051
  1631.0       29.0778
  1631.5       69.0744
  1632.0        57.833
  1632.5       16.2376
  1633.0       1.25765
  1633.5       14.4819
  1634.0       34.0299
  1634.5       89.9524
  1635.0        155.66
  1635.5       107.753
  1636.0       36.7575
  1636.5       10.9737
  1637.0       1.69187
  1637.5        1.2446
  1638.0        12.114
  1638.5       61.7037
  1639.0       89.8093
  1639.5       38.6644
  1640.0       1.23517
  1640.5       2.17747
  1641.0       24.4498
  1641.5       46.2987
  1642.0       23.0626
  1642.5       1.52957
  1643.0       1.21026
  1643.5       57.4156
  1644.0       161.078
  1644.5       155.791
  1645.0       61.2566
  1645.5       8.79887
  1646.0       1.22068
  1646.5       1.29432
  1647.0       27.3118
  1647.5       96.3312
  1648.0       109.788
  1648.5       41.3937
  1649.0       1.27323
  1649.5       62.2684
  1650.0       179.277
  1650.5       166.183
  1651.0       49.4042
  1651.5       1.21447
  1652.0       1.22722
  1652.5       1.23006
  1653.0       1.22466
  1653.5        1.2077
  1654.0       1.20954
  1654.5       7.32296
  1655.0         48.35
  1655.5       78.6941
  1656.0        35.704
  1656.5       1.23542
  1657.0       1.21814
  1657.5       1.22817
  1658.0        4.9142
  1658.5       9.70781
  1659.0       6.70248
  1659.5       2.08624
  1660.0       1.34077
  1660.5       8.12721
  1661.0       16.7042
  1661.5       11.2069
  1662.0       2.82692
  1662.5       1.21169
  1663.0       1.21516
  1663.5       1.21602
  1664.0        1.2159
  1664.5       1.21144
  1665.0       1.18111
  1665.5        1.1278
  1666.0       1.12247
  1666.5       1.15661
  1667.0       1.18396
  1667.5       1.19973
  1668.0        4.3088
  1668.5       195.207
  1669.0       529.511
  1669.5       475.831
  1670.0       167.664
  1670.5       140.504
  1671.0       211.898
  1671.5       92.9134
  1672.0       5.11909
  1672.5       27.5305
  1673.0       62.2047
  1673.5       58.5596
  1674.0       19.8215
  1674.5       1.33675
  1675.0       4.31766
  1675.5       9.50612
  1676.0       17.2969
  1676.5       20.9996
  1677.0       9.61909
  1677.5       1.18059
  1678.0       1.18432
  1678.5       1.24553
  1679.0       1.66115
  1679.5       3.38897
  1680.0         5.651
  1680.5       5.00456
  1681.0       2.37001
  1681.5        1.1864
  1682.0       1.18919
  1682.5       1.18917
  1683.0       1.72716
  1683.5       63.6225
  1684.0       127.633
  1684.5       69.7144
  1685.0       5.67921
  1685.5       1.65983
  1686.0       1.18508
  1686.5       1.18065
  1687.0       1.17176
  1687.5       1.16908
  1688.0       1.18729
  1688.5        1.3721
  1689.0       1.56805
  1689.5       39.8475
  1690.0       261.448
  1690.5       404.083
  1691.0       180.194
  1691.5       1.43595
  1692.0       1.17527
  1692.5       1.17085
  1693.0       1.17191
  1693.5       1.16816
  1694.0       1.16258
  1694.5       3.10219
  1695.0       85.2419
  1695.5        171.08
  1696.0       85.6254
  1696.5       3.11969
  1697.0       1.16719
  1697.5       1.15553
  1698.0       1.16074
  1698.5        1.1638
  1699.0       1.16266
  1699.5       1.15869
  1700.0       41.4529
  1700.5       279.924
  1701.0       441.571
  1701.5       197.815
  1702.0       1.33827
  1702.5       1.15197
  1703.0       1.15047
  1703.5       1.15196
  1704.0        1.1537
  1704.5       1.15297
  1705.0       1.17049
  1705.5       1.19344
  1706.0       1.17404
  1706.5       1.16621
  1707.0       17.4338
  1707.5       84.0798
  1708.0       118.753
  1708.5       49.1273
  1709.0       1.12339
  1709.5       1.13943
  1710.0       1.14218
  1710.5       1.13957
  1711.0       1.14153
  1711.5       33.0517
  1712.0       197.859
  1712.5        303.29
  1713.0       132.349
  1713.5       1.33574
  1714.0       1.12127
  1714.5       1.11847
  1715.0       1.13019
  1715.5       1.13309
  1716.0       1.12723
  1716.5       1.13544
  1717.0       1.18648
  1717.5       1.24726
  1718.0       1.25754
  1718.5        1.4389
  1719.0       1.72706
  1719.5       1.62212
  1720.0       1.66191
  1720.5       38.3306
  1721.0       75.8588
  1721.5       40.1081
  1722.0       4.20253
  1722.5       2.11391
  1723.0       1.37188
  1723.5       2.86078
  1724.0       25.8863
  1724.5       106.287
  1725.0       152.907
  1725.5       68.9634
  1726.0        5.6257
  1726.5       2.62465
  1727.0       1.11584
  1727.5       7.73141
  1728.0       25.2507
  1728.5       28.8479
  1729.0       11.3501
  1729.5       3.25007
  1730.0       11.9688
  1730.5       16.4559
  1731.0       7.49722
  1731.5        1.0946
  1732.0       1.12889
  1732.5       37.0726
  1733.0       84.1066
  1733.5       48.7242
  1734.0       5.55313
  1734.5       14.4885
  1735.0       31.7029
  1735.5       38.6118
  1736.0       41.5264
  1736.5       19.3222
  1737.0         1.318
  1737.5        7.4915
  1738.0       96.8219
  1738.5       199.615
  1739.0        128.38
  1739.5       21.9897
  1740.0       1.08148
  1740.5        1.0843
  1741.0        1.0576
  1741.5       1.04597
  1742.0       21.6024
  1742.5       55.5175
  1743.0       45.6031
  1743.5       12.6002
  1744.0        3.6146
  1744.5       90.2568
  1745.0       186.802
  1745.5       95.0071
  1746.0       3.15396
  1746.5       1.01745
  1747.0      0.976023
  1747.5        1.0187
  1748.0       1.07534
  1748.5         1.093
  1749.0       1.10485
  1749.5       5.32407
  1750.0       40.6931
  1750.5       72.7841
  1751.0       39.3437
  1751.5         4.485
  1752.0       2.31466
  1752.5       11.6299
  1753.0       18.7842
  1753.5       9.44458
  1754.0       1.32784
  1754.5       1.06465
  1755.0       1.02502
  1755.5       1.03825
  1756.0       1.06357
  1756.5       1.04081
  1757.0        1.0066
  1757.5       1.01147
  1758.0       1.05288
  1758.5       1.07846
  1759.0       1.08193
  1759.5       1.08153
  1760.0       1.07748
  1760.5       1.05715
  1761.0       1.03545
  1761.5       1.05159
  1762.0        1.0547
  1762.5       1.02918
  1763.0       1.02108
  1763.5       1.04663
  1764.0       1.93399
  1764.5       96.0833
  1765.0       362.484
  1765.5       360.149
  1766.0       133.746
  1766.5       77.8633
  1767.0       163.987
  1767.5       118.696
  1768.0       29.5964
  1768.5       8.28697
  1769.0       16.8346
  1769.5        41.899
  1770.0       54.8681
  1770.5       23.6881
  1771.0       1.01503
  1771.5       1.21545
  1772.0       2.39331
  1772.5       5.41442
  1773.0       13.7521
  1773.5       17.7154
  1774.0       7.23699
  1774.5      0.975995
  1775.0       1.01604
  1775.5       1.00675
  1776.0        1.1241
  1776.5       1.47676
  1777.0       3.02846
  1777.5       5.17953
  1778.0       4.31598
  1778.5       1.68776
  1779.0      0.906068
  1779.5      0.987223
  1780.0       1.03463
  1780.5       41.8708
  1781.0       80.2099
  1781.5       50.9244
  1782.0       11.9937
  1782.5       1.88619
  1783.0       2.56113
  1783.5       1.78453
  1784.0      0.988142
  1784.5      0.993252
  1785.0       1.25933
  1785.5       1.43798
  1786.0       1.09054
  1786.5      0.947881
  1787.0       2.98428
  1787.5       159.795
  1788.0       351.711
  1788.5       176.001
  1789.0       7.36387
  1789.5       1.13253
  1790.0       1.00271
  1790.5      0.914588
  1791.0      0.885279
  1791.5      0.920499
  1792.0      0.918789
  1792.5       3.20353
  1793.0       59.2099
  1793.5      104.0234
  1794.0       47.3485
  1794.5       1.78344
  1795.0      0.919898
  1795.5      0.924116
  1796.0      0.930872
  1796.5      0.889697
  1797.0      0.873552
  1797.5      0.895291
  1798.0      0.904135
  1798.5       22.7688
  1799.0        218.73
  1799.5       307.892
  1800.0       95.1793
  1800.5      0.846266
  1801.0      0.644599
  1801.5      0.655619
  1802.0        0.6962
  1802.5      0.735672
  1803.0      0.838911
  1803.5      0.830751
  1804.0      0.835071
  1804.5      0.898686
  1805.0      0.902833
  1805.5      0.778529
  1806.0       8.79568
  1806.5       29.9612
  1807.0       55.7759
  1807.5       18.2549
  1808.0      0.799913
  1808.5      0.854011
  1809.0      0.828669
  1809.5       0.83129
  1810.0      0.777258
  1810.5      0.636063
  1811.0       9.69817
  1811.5       92.8076
  1812.0       129.765
  1812.5       30.1152
  1813.0      0.608527
  1813.5      0.695502
  1814.0      0.822158
  1814.5      0.838966
  1815.0      0.694459
  1815.5      0.564259
  1816.0      0.564754
  1816.5      0.646882
  1817.0      0.725254
  1817.5      0.761922
  1818.0      0.731775
  1818.5      0.651399
  1819.0      0.660357
  1819.5      0.634008
  1820.0       0.51802
  1820.5       1.93237
  1821.0       11.4909
  1821.5       7.81338
  1822.0       1.02575
  1822.5      0.515796
  1823.0      0.673368
  1823.5      0.833944
  1824.0      0.895533
  1824.5       6.75976
  1825.0       43.6556
  1825.5       69.2795
  1826.0       13.3562
  1826.5      0.631201
  1827.0      0.732376
  1827.5      0.838086
  1828.0       0.97916
  1828.5      0.733836
  1829.0      0.668025
  1829.5      0.898848
  1830.0      0.656854
  1830.5      0.724347
  1831.0       1.28763
  1831.5       1.95959
  1832.0       1.85893
  1832.5        1.0578
  1833.0       1.33253
  1833.5       1.50507
  1834.0      0.594286
  1834.5        1.5355
  1835.0        1.4109
  1835.5       2.49317
  1836.0       1.45024
  1836.5       1.52133
  1837.0       2.53008
  1837.5       1.07514
  1838.0      0.665566
  1838.5      0.555312
  1839.0      0.533246
  1839.5       6.63567
  1840.0       1.55516
  1840.5       4.86062
  1841.0        2.7985
  1841.5      0.513591
  1842.0      0.542336
  1842.5      0.674761
  1843.0       4.69645
  1843.5       6.96017
  1844.0       3.37714
  1844.5      0.691551
  1845.0       2.42777
  1845.5       27.0968
  1846.0       29.8401
  1846.5       4.08838
  1847.0      0.574092
  1847.5      0.535329
  1848.0      0.553521
  1848.5       0.57432
  1849.0      0.550789
  1849.5       1.11381
  1850.0       6.30976
  1850.5       4.29023
  1851.0        3.7308
  1851.5      0.711926
  1852.0       29.9447
  1852.5       34.9617
  1853.0       4.70263
  1853.5      0.861186
  1854.0      0.598778
  1854.5      0.567028
  1855.0      0.720337
  1855.5       3.94144
  1856.0       4.92069
  1856.5       1.19261
  1857.0      0.627975
  1857.5      0.612843
  1858.0       4.69798
  1858.5       15.4793
  1859.0       9.13709
  1859.5        1.3061
  1860.0       0.65849
  1860.5      0.653921
  1861.0      0.661947
  1861.5      0.688807
  1862.0      0.758713
  1862.5      0.756453
  1863.0      0.720231
  1863.5      0.684198
  1864.0      0.684295
  1864.5      0.714581
  1865.0      0.690943
  1865.5      0.717381
  1866.0      0.780583
  1866.5      0.758999
  1867.0      0.707055
  1867.5       0.74743
  1868.0      0.763746
  1868.5       0.67358
  1869.0      0.614901
  1869.5      0.712642
  1870.0      0.723753
  1870.5      0.740485
  1871.0      0.772086
  1871.5      0.759952
  1872.0      0.689815
  1872.5      0.835981
  1873.0       0.86175
  1873.5      0.794429
  1874.0       5.06174
  1874.5       37.6166
  1875.0        16.675
  1875.5       1.29849
  1876.0       8.51944
  1876.5       10.9047
  1877.0       2.30325
  1877.5       1.50389
  1878.0       1.12454
  1878.5       2.26747
  1879.0       11.1166
  1879.5       20.6859
  1880.0       15.1663
  1880.5       1.96891
  1881.0      0.778143
  1881.5      0.796159
  1882.0       1.17435
  1882.5       1.84201
  1883.0       4.19153
  1883.5       5.41358
  1884.0       1.59497
  1884.5       1.04722
  1885.0      0.741912
  1885.5      0.798535
  1886.0        0.7837
  1886.5      0.805491
  1887.0      0.945846
  1887.5       1.12373
  1888.0       2.21088
  1888.5       3.65976
  1889.0       2.62005
  1889.5       1.06107
  1890.0      0.925327
  1890.5       1.01612
  1891.0       12.7087
  1891.5       23.6956
  1892.0        6.2349
  1892.5      0.941617
  1893.0      0.771552
  1893.5       0.86163
  1894.0      0.969707
  1894.5       1.15341
  1895.0       1.20386
  1895.5      0.965846
  1896.0      0.874745
  1896.5      0.875354
  1897.0      0.801636
  1897.5      0.911807
  1898.0       1.27862
  1898.5       22.1876
  1899.0       15.2219
  1899.5       2.19901
  1900.0       1.08863
  1900.5       1.00388
  1901.0      0.922616
  1901.5      0.891443
  1902.0      0.848912
  1902.5      0.959307
  1903.0       1.13522
  1903.5      0.971768
  1904.0       5.01343
  1904.5       16.6471
  1905.0       6.87616
  1905.5       1.50135
  1906.0       1.07552
  1906.5       1.11448
  1907.0       1.14235
  1907.5      0.941516
  1908.0       0.86265
  1908.5      0.927289
  1909.0       1.02896
  1909.5      0.960883
  1910.0      0.926759
  1910.5        5.2158
  1911.0       29.8513
  1911.5       22.3455
  1912.0       19.3941
  1912.5       1.01167
  1913.0      0.986764
  1913.5       1.21081
  1914.0       1.21217
  1914.5       1.06219
  1915.0      0.997084
  1915.5      0.908981
  1916.0       1.09921
  1916.5       1.17844
  1917.0       1.07234
  1917.5      0.945902
  1918.0      0.914697
  1918.5       7.34571
  1919.0       29.3556
  1919.5        17.745
  1920.0       2.08169
  1920.5       1.39908
  1921.0       1.41261
  1921.5        1.1753
  1922.0      0.933747
  1922.5      0.935764
  1923.0      0.923948
  1923.5       1.07422
  1924.0       1.62659
  1924.5       16.9085
  1925.0        113.89
  1925.5       84.2518
  1926.0       4.97346
  1926.5       1.07622
  1927.0       1.29226
  1927.5       1.12455
  1928.0      0.958083
  1928.5       1.24053
  1929.0       1.14963
  1929.5      0.949413
  1930.0       1.19533
  1930.5        1.2438
  1931.0       1.19685
  1931.5       1.16585
  1932.0       1.12532
  1932.5      0.983375
  1933.0       1.05798
  1933.5       1.15669
  1934.0       1.40559
  1934.5       13.0718
  1935.0       42.4064
  1935.5       21.8672
  1936.0       1.51675
  1936.5       1.28429
  1937.0        1.0606
  1937.5      0.971383
  1938.0       1.16285
  1938.5       1.06961
  1939.0       4.29925
  1939.5       19.4898
  1940.0       51.3403
  1940.5       34.3092
  1941.0       1.42589
  1941.5       1.20436
  1942.0       1.08841
  1942.5      0.940255
  1943.0       0.94942
  1943.5       1.16487
  1944.0        1.0852
  1944.5        1.1701
  1945.0       1.15582
  1945.5        0.9696
  1946.0      0.998296
  1946.5      0.966808
  1947.0       1.12337
  1947.5       1.07701
  1948.0       1.06838
  1948.5       1.10998
  1949.0       1.02276
  1949.5      0.994914
  1950.0      0.993367
  1950.5       1.09208
  1951.0       3.05575
  1951.5       13.0252
  1952.0       17.8747
  1952.5       7.06354
  1953.0       1.97796
  1953.5         1.735
  1954.0       1.59905
  1954.5       1.37571
  1955.0       2.87799
  1955.5       14.0974
  1956.0       21.7722
  1956.5       13.9496
  1957.0       4.47668
  1957.5       2.50226
  1958.0       1.67792
  1958.5       2.22273
  1959.0       6.79122
  1959.5       9.68658
  1960.0       6.03228
  1960.5      0.837819
  1961.0        1.6082
  1961.5       4.70647
  1962.0       7.12537
  1962.5       3.66375
  1963.0       1.08339
  1963.5        6.9116
  1964.0       20.4149
  1964.5       23.5155
  1965.0       8.64042
  1965.5        1.0758
  1966.0       1.03682
  1966.5       0.94148
  1967.0       3.67691
  1967.5       11.5152
  1968.0       13.2994
  1968.5        5.9779
  1969.0       1.50407
  1969.5       24.2859
  1970.0       63.5014
  1970.5       51.1508
  1971.0       12.5473
  1971.5       1.14426
  1972.0       1.07484
  1972.5       1.06678
  1973.0       6.58534
  1973.5       14.2711
  1974.0       9.60821
  1974.5       13.0724
  1975.0       28.4531
  1975.5       19.2581
  1976.0       4.09993
  1976.5       30.5738
  1977.0        77.179
  1977.5       58.0927
  1978.0       14.3566
  1978.5      0.864266
  1979.0      0.846193
  1979.5       1.03121
  1980.0       1.15893
  1980.5       1.02206
  1981.0      0.894817
  1981.5      0.839418
  1982.0      0.843394
  1982.5      0.877037
  1983.0       1.47128
  1983.5       17.6486
  1984.0        34.442
  1984.5       16.9921
  1985.0       1.06254
  1985.5      0.900038
  1986.0       0.83171
  1986.5      0.911346
  1987.0       1.06213
  1987.5      0.972491
  1988.0      0.852286
  1988.5       1.62241
  1989.0       3.01711
  1989.5       2.74577
  1990.0       1.52109
  1990.5      0.971897
  1991.0      0.897121
  1991.5       1.09316
  1992.0       3.18065
  1992.5       5.16916
  1993.0       3.30372
  1993.5        1.1816
  1994.0      0.977402
  1994.5      0.891143
  1995.0       2.57004
  1995.5       2.73414
  1996.0        2.6883
  1996.5       2.78071
  1997.0       2.84601
  1997.5       2.92578
  1998.0       3.27939
  1998.5       3.27659
  1999.0       3.30311
  1999.5       3.97209
  2000.0       80.4559
  2000.5       257.065
  2001.0       273.636
  2001.5       98.5296
  2002.0       9.01496
  2002.5       25.0739
  2003.0       79.0596
  2003.5       97.1051
  2004.0       32.4263
  2004.5        4.9967
  2005.0       5.39291
  2005.5       7.42009
  2006.0       9.55766
  2006.5       28.5569
  2007.0        40.654
  2007.5       25.8908
  2008.0       3.67214
  2008.5       3.36558
  2009.0       2.96925
  2009.5       4.64481
  2010.0       6.11498
  2010.5       5.85414
  2011.0       11.8229
  2011.5       18.8463
  2012.0        12.759
  2012.5       6.28389
  2013.0       5.63584
  2013.5       4.81195
  2014.0       4.32573
  2014.5       5.27694
  2015.0       5.18618
  2015.5       4.80182
  2016.0       5.11363
  2016.5       5.01927
  2017.0       7.23826
  2017.5       9.49093
  2018.0       6.90734
  2018.5       16.8322
  2019.0       62.1622
  2019.5       84.9518
  2020.0       37.6921
  2020.5       4.11967
  2021.0        3.9543
  2021.5       3.81358
  2022.0        3.6468
  2022.5       3.63858
  2023.0       3.78847
  2023.5        3.7399
  2024.0       4.30891
  2024.5       5.16128
  2025.0       4.15979
  2025.5       3.06221
  2026.0       2.69569
  2026.5       3.49102
  2027.0       215.321
  2027.5       463.492
  2028.0       259.475
  2028.5       25.3097
  2029.0       2.74331
  2029.5        2.5696
  2030.0       2.53118
  2030.5        2.6235
  2031.0       2.65154
  2031.5       2.78444
  2032.0       2.90721
  2032.5       2.95184
  2033.0       8.55491
  2033.5        109.36
  2034.0       209.132
  2034.5      101.5023
  2035.0       3.31238
  2035.5       2.50849
  2036.0       2.41286
  2036.5       2.40622
  2037.0       2.40501
  2037.5       2.42426
  2038.0       2.47633
  2038.5       2.48199
  2039.0        2.3875
  2039.5       2.44926
  2040.0        2.6564
  2040.5       128.332
  2041.0           436
  2041.5       475.628
  2042.0         164.5
  2042.5       2.53262
  2043.0       2.45217
  2043.5       2.47878
  2044.0        2.5126
  2044.5       2.51386
  2045.0       2.50298
  2045.5       2.49452
  2046.0       2.50397
  2046.5       2.45813
  2047.0       2.55341
  2047.5       2.78203
  2048.0       2.93147
  2048.5       3.12962
  2049.0        8.7576
  2049.5       87.3534
  2050.0       148.065
  2050.5       66.5744
  2051.0       3.83525
  2051.5       3.51119
  2052.0       4.38626
  2052.5       4.16724
  2053.0       3.68355
  2053.5       4.67338
  2054.0       4.88242
  2054.5       3.92989
  2055.0       4.38527
  2055.5       39.5824
  2056.0       213.032
  2056.5       280.956
  2057.0       132.729
  2057.5       4.16658
  2058.0       4.23808
  2058.5       3.41112
  2059.0       3.58512
  2059.5       3.08581
  2060.0       2.56316
  2060.5       2.75736
  2061.0       2.87135
  2061.5       3.02105
  2062.0       3.75244
  2062.5       3.65353
  2063.0       4.01852
  2063.5       4.33313
  2064.0       3.76424
  2064.5       3.82083
  2065.0       4.14867
  2065.5       4.72048
  2066.0       4.16912
  2066.5       22.0537
  2067.0       69.7346
  2067.5       74.4031
  2068.0       31.3825
  2068.5       3.72587
  2069.0       3.72162
  2069.5       3.70525
  2070.0        3.7077
  2070.5       3.68446
  2071.0       3.72975
  2071.5       3.97295
  2072.0       21.5043
  2072.5        137.05
  2073.0       225.086
  2073.5      102.1419
  2074.0       4.31931
  2074.5       2.99726
  2075.0       3.08143
  2075.5       3.03364
  2076.0       2.81344
  2076.5       2.78028
  2077.0       2.79814
  2077.5       2.86395
  2078.0       2.82159
  2078.5       2.58261
  2079.0        2.4674
  2079.5       2.44742
  2080.0       2.42303
  2080.5       2.40993
  2081.0       2.44122
  2081.5       2.46291
  2082.0        2.4732
  2082.5        2.4963
  2083.0       2.56809
  2083.5        2.5713
  2084.0       2.55644
  2084.5       2.67586
  2085.0       3.18911
  2085.5       30.4992
  2086.0        60.367
  2086.5       32.3273
  2087.0       3.66768
  2087.5       2.50862
  2088.0       2.46489
  2088.5       2.49658
  2089.0       2.48883
  2089.5       2.47181
  2090.0       9.29205
  2090.5        67.657
  2091.0       118.292
  2091.5        59.152
  2092.0       4.82782
  2092.5       2.39485
  2093.0       2.38969
  2093.5       2.52268
  2094.0       2.54005
  2094.5       2.37107
  2095.0       2.31599
  2095.5        2.3169
  2096.0       2.29881
  2096.5       2.28119
  2097.0       2.29482
  2097.5       2.28638
  2098.0       2.37751
  2098.5       2.64149
  2099.0       2.53637
  2099.5       2.28696
  2100.0       2.81989
  2100.5       4.60348
  2101.0       6.74327
  2101.5       6.54523
  2102.0       4.95777
  2102.5       6.71384
  2103.0       13.3542
  2103.5       15.6414
  2104.0       7.63025
  2104.5        3.2326
  2105.0       7.22301
  2105.5       16.6413
  2106.0       32.4987
  2106.5       47.7112
  2107.0       41.1842
  2107.5       15.1922
  2108.0       2.24679
  2108.5       2.24247
  2109.0       9.87128
  2109.5       21.3348
  2110.0        33.922
  2110.5       45.5958
  2111.0       69.2547
  2111.5       94.7753
  2112.0        51.933
  2112.5       6.91982
  2113.0       2.22285
  2113.5       2.20007
  2114.0       2.20187
  2114.5       2.23223
  2115.0       19.7716
  2115.5       41.2866
  2116.0       25.7091
  2116.5       5.14458
  2117.0       60.5009
  2117.5       140.173
  2118.0       96.1484
  2118.5       19.7271
  2119.0       2.48606
  2119.5       2.27799
  2120.0       2.36103
  2120.5       2.31902
  2121.0       2.22977
  2121.5       2.20201
  2122.0       2.17677
  2122.5       18.2303
  2123.0       49.9507
  2123.5       48.4294
  2124.0        21.428
  2124.5       89.2338
  2125.0       168.412
  2125.5       82.4289
  2126.0       2.99227
  2126.5        2.1449
  2127.0       2.87003
  2127.5       6.84036
  2128.0        9.4368
  2128.5       5.36123
  2129.0       2.17437
  2129.5       2.14668
  2130.0       2.14295
  2130.5       2.14261
  2131.0       5.12341
  2131.5        12.013
  2132.0        39.286
  2132.5       64.3729
  2133.0       36.4316
  2133.5       5.90885
  2134.0       2.12482
  2134.5       2.12134
  2135.0       2.13031
  2135.5       2.21341
  2136.0       2.25666
  2136.5       2.17353
  2137.0       2.11721
  2137.5       2.11531
  2138.0       2.11835
  2138.5       2.12646
  2139.0       2.13397
  2139.5        2.1303
  2140.0       2.11887
  2140.5       2.11014
  2141.0       2.10729
  2141.5       2.10603
  2142.0       2.10879
  2142.5       2.12127
  2143.0       2.12658
  2143.5       2.11422
  2144.0       2.11149
  2144.5       2.12082
  2145.0       2.11128
  2145.5       2.10989
  2146.0       2.11772
  2146.5       2.11247
  2147.0       2.11798
  2147.5       2.13258
  2148.0       2.15845
  2148.5       2.16693
  2149.0       2.14737
  2149.5       2.57565
  2150.0        142.14
  2150.5       383.385
  2151.0       332.317
  2151.5       94.7808
  2152.0       4.16258
  2152.5       10.7615
  2153.0       56.8052
  2153.5       136.553
  2154.0       133.154
  2154.5       47.4849
  2155.0        4.5539
  2155.5       2.87818
  2156.0       3.37498
  2156.5       6.48541
  2157.0       7.18675
  2157.5       34.6287
  2158.0       67.6808
  2158.5       37.6889
  2159.0       4.84017
  2159.5       2.28804
  2160.0        2.2151
  2160.5       2.23202
  2161.0       2.29605
  2161.5       2.97356
  2162.0       4.19365
  2162.5       3.94924
  2163.0       9.67883
  2163.5       21.0642
  2164.0       18.8905
  2164.5       6.86535
  2165.0       2.10583
  2165.5       2.10739
  2166.0       2.14267
  2166.5       2.22671
  2167.0       2.27559
  2167.5       2.20526
  2168.0         2.279
  2168.5       3.00331
  2169.0       3.43231
  2169.5       2.80666
  2170.0       3.66115
  2170.5       47.1679
  2171.0       98.0551
  2171.5       59.3755
  2172.0       9.35543
  2172.5       2.33058
  2173.0       2.27729
  2173.5        2.1991
  2174.0       2.43717
  2174.5       2.52888
  2175.0       2.26889
  2175.5       2.32136
  2176.0       2.76951
  2176.5       2.70574
  2177.0       2.31331
  2177.5       2.30125
  2178.0       2.35437
  2178.5       2.95486
  2179.0        4.3289
  2179.5       92.8663
  2180.0       259.775
  2180.5       241.288
  2181.0       74.4046
  2181.5       2.03073
  2182.0       2.02829
  2182.5       2.18254
  2183.0       2.95837
  2183.5       3.36954
  2184.0        2.8364
  2184.5       3.22427
  2185.0       3.55763
  2185.5       2.59818
  2186.0        2.0109
  2186.5       16.6615
  2187.0        83.858
  2187.5       122.798
  2188.0       53.7999
  2188.5       2.41523
  2189.0       2.38075
  2189.5        2.4475
  2190.0       2.40385
  2190.5        2.4713
  2191.0        2.2856
  2191.5       2.02194
  2192.0       2.00062
  2192.5        2.0036
  2193.0       1.99913
  2193.5       2.01422
  2194.0       2.33445
  2194.5       4.45278
  2195.0       180.961
  2195.5       386.609
  2196.0       212.312
  2196.5       17.2311
  2197.0       2.19176
  2197.5       2.37432
  2198.0        3.2635
  2198.5       3.55817
  2199.0       3.05993
  2199.5         3.257
  2200.0       3.77431
  2200.5       3.55685
  2201.0       2.89738
  2201.5       2.64368
  2202.0       2.75968
  2202.5         2.748
  2203.0       2.52998
  2203.5       2.38142
  2204.0       2.47974
  2204.5       34.4456
  2205.0       94.2161
  2205.5       90.4878
  2206.0       29.9572
  2206.5       2.36794
  2207.0       2.30061
  2207.5       2.28209
  2208.0       2.14012
  2208.5        1.9917
  2209.0       1.99318
  2209.5       2.00757
  2210.0       2.08481
  2210.5       2.17965
  2211.0       2.15902
  2211.5       4.59571
  2212.0       147.618
  2212.5        308.04
  2213.0       168.897
  2213.5       14.6611
  2214.0       2.06788
  2214.5       2.26882
  2215.0       2.42663
  2215.5       2.71154
  2216.0       2.95001
  2216.5       2.69177
  2217.0       2.29627
  2217.5       2.09973
  2218.0       2.09048
  2218.5       2.09501
  2219.0        2.0363
  2219.5       2.03278
  2220.0       2.06526
  2220.5       2.17331
  2221.0       2.46922
  2221.5       2.66098
  2222.0       2.44756
  2222.5        2.1581
  2223.0       2.10494
  2223.5       2.11917
  2224.0       18.7254
  2224.5       60.5159
  2225.0       68.5121
  2225.5       26.4242
  2226.0       2.33707
  2226.5        2.5807
  2227.0       2.76349
  2227.5       2.49905
  2228.0       2.18899
  2228.5        2.1105
  2229.0       2.10515
  2229.5       2.06321
  2230.0       2.07074
  2230.5       43.7175
  2231.0       138.247
  2231.5       145.844
  2232.0       52.4141
  2232.5       2.74989
  2233.0        2.5522
  2233.5       2.59018
  2234.0       2.47479
  2234.5       2.27956
  2235.0       2.25207
  2235.5       2.34631
  2236.0       2.60735
  2236.5       2.69821
  2237.0       2.53406
  2237.5       2.64612
  2238.0       2.76707
  2238.5       2.43362
  2239.0       2.15828
  2239.5       2.36996
  2240.0       2.65307
  2240.5       2.58393
  2241.0       2.57963
  2241.5        2.6849
  2242.0       2.49118
  2242.5       2.34187
  2243.0       2.42429
  2243.5        2.8136
  2244.0       3.19637
  2244.5       2.78875
  2245.0       2.45136
  2245.5       23.0444
  2246.0         44.86
  2246.5       24.7815
  2247.0        4.8933
  2247.5       3.38115
  2248.0       2.45145
  2248.5       2.15236
  2249.0       2.31282
  2249.5       2.51336
  2250.0       2.72164
  2250.5        2.9169
  2251.0        20.588
  2251.5       65.8289
  2252.0       74.5039
  2252.5       28.9056
  2253.0       2.74501
  2253.5       3.00427
  2254.0       3.59106
  2254.5       3.53421
  2255.0       3.12646
  2255.5       3.22698
  2256.0       3.44291
  2256.5       3.72742
  2257.0       3.95182
  2257.5       3.48877
  2258.0       3.03269
  2258.5       2.79061
  2259.0       2.45283
  2259.5       2.46902
  2260.0       2.86988
  2260.5       3.60734
  2261.0       4.12866
  2261.5       4.52591
  2262.0       5.12089
  2262.5       4.30998
  2263.0       2.98367
  2263.5        3.1687
  2264.0       4.09125
  2264.5       4.59593
  2265.0       3.90527
  2265.5       2.69134
  2266.0       2.15437
  2266.5       2.14071
  2267.0       2.45349
  2267.5       3.25378
  2268.0       4.83618
  2268.5       13.2776
  2269.0       21.1721
  2269.5       12.5468
  2270.0       3.92373
  2270.5       3.48503
  2271.0       3.02475
  2271.5       3.20441
  2272.0       4.19123
  2272.5        4.2273
  2273.0       3.37152
  2273.5       12.7801
  2274.0       30.4517
  2274.5       27.6503
  2275.0       11.6493
  2275.5       6.83144
  2276.0       6.75314
  2276.5       4.84603
  2277.0       3.77912
  2277.5       3.60657
  2278.0       2.97025
  2278.5       2.58792
  2279.0       2.40804
  2279.5       2.13583
  2280.0       2.55704
  2280.5       4.32814
  2281.0       5.41815
  2281.5       4.01598
  2282.0       3.29329
  2282.5       5.10803
  2283.0       6.13476
  2283.5       5.62906
  2284.0       5.20719
  2284.5       4.85045
  2285.0       4.66829
  2285.5        4.0027
  2286.0         2.918
  2286.5       2.57061
  2287.0       2.75862
  2287.5       2.84819
  2288.0       2.88422
  2288.5       2.92259
  2289.0       4.11624
  2289.5       6.47078
  2290.0        7.0777
  2290.5        5.1929
  2291.0       3.62434
  2291.5        3.2765
  2292.0       3.93075
  2292.5        4.5013
  2293.0       4.38597
  2293.5        7.1965
  2294.0       9.85117
  2294.5       7.25252
  2295.0       5.14594
  2295.5       5.53716
  2296.0       5.44586
  2296.5        4.3941
  2297.0       3.09338
  2297.5       3.88748
  2298.0       9.81727
  2298.5       15.1938
  2299.0       12.0689
  2299.5       6.60432
  2300.0       5.52405
  2300.5        6.2923
  2301.0       5.75241
  2301.5       4.20656
  2302.0       4.24689
  2302.5       4.36794
  2303.0       4.31823
  2303.5       5.25538
  2304.0       6.48238
  2304.5       6.90822
  2305.0       5.81161
  2305.5       4.27965
  2306.0       3.85437
  2306.5       4.69558
  2307.0       5.86647
  2307.5       5.91335
  2308.0       4.40545
  2308.5       3.18976
  2309.0       3.41184
  2309.5       3.77106
  2310.0        3.2079
  2310.5       2.37234
  2311.0       2.07979
  2311.5       2.59792
  2312.0       3.08291
  2312.5       2.66673
  2313.0       2.01039
  2313.5       1.79355
  2314.0       1.90891
  2314.5       2.03128
  2315.0       2.33791
  2315.5       3.79767
  2316.0       7.74193
  2316.5       13.6934
  2317.0       17.1756
  2317.5       15.6405
  2318.0       13.6767
  2318.5       10.9771
  2319.0       7.80764
  2319.5       6.50088
  2320.0       6.50068
  2320.5       6.62474
  2321.0       7.16638
  2321.5        8.6149
  2322.0       9.27788
  2322.5       8.30259
  2323.0       8.02619
  2323.5       7.66017
  2324.0       5.78277
  2324.5       5.11498
  2325.0       6.13968
  2325.5       6.05926
  2326.0       4.65266
  2326.5       3.71052
  2327.0       2.93526
  2327.5       3.73963
  2328.0       6.44176
  2328.5       7.59712
  2329.0        5.6422
  2329.5       3.58408
  2330.0       3.01823
  2330.5       3.77268
  2331.0       5.71964
  2331.5       6.74206
  2332.0       6.07685
  2332.5       4.62385
  2333.0       3.93808
  2333.5        4.3694
  2334.0       4.96349
  2334.5       5.54748
  2335.0       6.35053
  2335.5       6.68532
  2336.0       5.84305
  2336.5       4.57091
  2337.0       3.86042
  2337.5       4.87892
  2338.0       7.90652
  2338.5       9.20999
  2339.0       8.36985
  2339.5        10.577
  2340.0       14.4715
  2340.5       14.7517
  2341.0         13.07
  2341.5       13.8341
  2342.0       12.8918
  2342.5       8.04346
  2343.0       6.44557
  2343.5       7.09736
  2344.0       7.22443
  2344.5       9.07609
  2345.0       11.0287
  2345.5      10.26383
  2346.0       8.16924
  2346.5       8.13216
  2347.0       10.5804
  2347.5       12.9737
  2348.0       12.8135
  2348.5      10.28303
  2349.0      10.26896
  2349.5       12.2841
  2350.0       15.0685
  2350.5       16.0666
  2351.0       15.5201
  2351.5       20.7702
  2352.0       29.8508
  2352.5       28.3208
  2353.0       16.8716
  2353.5       12.1085
  2354.0        8.8011
  2354.5       5.91526
  2355.0       8.15344
  2355.5       12.7821
  2356.0       14.4009
  2356.5        11.914
  2357.0        8.2697
  2357.5       7.69593
  2358.0       12.6546
  2358.5       19.9121
  2359.0       17.1959
  2359.5       8.17114
  2360.0       3.48687
  2360.5       2.69053
  2361.0       4.51578
  2361.5       7.77215
  2362.0       8.77738
  2362.5       5.55017
  2363.0       4.21851
  2363.5       10.6333
  2364.0       17.3211
  2364.5        13.929
  2365.0       6.59292
  2365.5       3.94147
  2366.0       5.03543
  2366.5       7.96403
  2367.0       13.8193
  2367.5       18.8631
  2368.0        15.187
  2368.5       13.3393
  2369.0       15.4981
  2369.5       17.1969
  2370.0       26.9163
  2370.5       42.9254
  2371.0       52.9263
  2371.5       48.3305
  2372.0        33.861
  2372.5       21.0377
  2373.0       15.3851
  2373.5       11.3626
  2374.0       8.53562
  2374.5        7.9706
  2375.0       7.30345
  2375.5        8.8286
  2376.0       16.7389
  2376.5       25.4256
  2377.0       22.1814
  2377.5       27.6512
  2378.0       40.2102
  2378.5       30.8666
  2379.0       14.1401
  2379.5       9.52323
  2380.0       14.2373
  2380.5       14.8116
  2381.0       10.8248
  2381.5       6.11599
  2382.0       4.73158
  2382.5       13.8314
  2383.0       37.6765
  2383.5       56.5559
  2384.0       49.9806
  2384.5       24.5987
  2385.0       9.64755
  2385.5       19.7314
  2386.0       35.1313
  2386.5       29.6438
  2387.0         15.31
  2387.5       16.9428
  2388.0       31.7762
  2388.5       35.0682
  2389.0       18.3808
  2389.5       8.19545
  2390.0       10.7648
  2390.5       10.6827
  2391.0       26.8558
  2391.5       49.2206
  2392.0       48.3427
  2392.5       23.5031
  2393.0       7.30896
  2393.5       8.59209
  2394.0       11.2435
  2394.5       13.3941
  2395.0       11.5763
  2395.5       8.57267
  2396.0       15.2855
  2396.5       35.0065
  2397.0       51.4721
  2397.5        40.239
  2398.0       19.3128
  2398.5       9.69267
  2399.0       6.88401
  2399.5       11.0466
  2400.0       19.7895
  2400.5       23.4743
  2401.0       14.9204
  2401.5       8.26361
  2402.0       7.53011
  2402.5       6.52256
  2403.0       5.88565
  2403.5       19.0678
  2404.0       46.2971
  2404.5       61.1345
  2405.0       35.3198
  2405.5       14.0808
  2406.0       26.3456
  2406.5       43.9693
  2407.0       47.8572
  2407.5       41.2534
  2408.0       32.2793
  2408.5       18.7349
  2409.0       25.1084
  2409.5        45.807
  2410.0       40.0486
  2410.5       18.5358
  2411.0       9.62302
  2411.5       21.0119
  2412.0       31.3717
  2412.5       22.4866
  2413.0       13.3194
  2413.5       28.6081
  2414.0       50.5516
  2414.5       48.5038
  2415.0       36.5875
  2415.5       68.4836
  2416.0       117.526
  2416.5       81.5933
  2417.0       27.7562
  2417.5       19.5218
  2418.0       64.3286
  2418.5       119.754
  2419.0        138.54
  2419.5       97.7722
  2420.0       44.9824
  2420.5       13.7715
  2421.0       8.84465
  2421.5       16.4635
  2422.0        20.542
  2422.5       14.9751
  2423.0       8.55186
  2423.5       24.1889
  2424.0       48.2492
  2424.5       50.7164
  2425.0       29.3209
  2425.5       15.0512
  2426.0        35.152
  2426.5       54.5563
  2427.0       40.2194
  2427.5       17.1198
  2428.0       6.01356
  2428.5       7.01001
  2429.0       8.02454
  2429.5       9.50372
  2430.0       8.91484
  2430.5       7.51139
  2431.0       6.45391
  2431.5       6.07211
  2432.0       12.0515
  2432.5       36.5462
  2433.0       60.7988
  2433.5       48.0422
  2434.0       30.6916
  2434.5       68.9358
  2435.0       170.914
  2435.5        260.95
  2436.0       234.987
  2436.5       150.334
  2437.0       72.0365
  2437.5       25.3137
  2438.0        8.8229
  2438.5       8.68259
  2439.0        7.4436
  2439.5       6.74344
  2440.0       6.72405
  2440.5       6.74916
  2441.0       6.15162
  2441.5         7.517
  2442.0       17.3306
  2442.5        32.149
  2443.0       32.4141
  2443.5       21.9688
  2444.0       12.3395
  2444.5       12.2746
  2445.0       27.6867
  2445.5       107.028
  2446.0       180.656
  2446.5       177.561
  2447.0        141.81
  2447.5        124.76
  2448.0      101.8325
  2448.5       44.0265
  2449.0       21.2304
  2449.5       50.4342
  2450.0        108.77
  2450.5       162.346
  2451.0       191.668
  2451.5       192.501
  2452.0        126.28
  2452.5       52.0957
  2453.0       22.5263
  2453.5       52.2564
  2454.0       110.652
  2454.5       139.411
  2455.0       94.2599
  2455.5       38.7631
  2456.0       13.3809
  2456.5       15.6563
  2457.0       13.5241
  2457.5      10.39699
  2458.0       9.09227
  2458.5      10.29142
  2459.0       13.0212
  2459.5       14.8176
  2460.0        12.608
  2460.5        11.335
  2461.0       10.7773
  2461.5        37.339
  2462.0       110.606
  2462.5       204.975
  2463.0       209.961
  2463.5       129.545
  2464.0        70.032
  2464.5        43.109
  2465.0       27.9272
  2465.5       14.7361
  2466.0       17.5782
  2466.5       15.4274
  2467.0       33.7068
  2467.5       71.2219
  2468.0       97.0835
  2468.5       66.7974
  2469.0       31.4434
  2469.5       20.3713
  2470.0       22.7106
  2470.5       27.9465
  2471.0       52.9805
  2471.5       177.712
  2472.0       360.894
  2472.5       417.169
  2473.0       313.892
  2473.5       146.204
  2474.0       55.4368
  2474.5       35.6913
  2475.0       44.8472
  2475.5        16.934
  2476.0       13.9133
  2476.5        9.3914
  2477.0        11.598
  2477.5       20.6594
  2478.0        27.585
  2478.5       28.7003
  2479.0       26.6323
  2479.5       28.0762
  2480.0       39.6612
  2480.5       66.0118
  2481.0       85.1788
  2481.5       77.1579
  2482.0       42.3666
  2482.5        22.345
  2483.0       27.4252
  2483.5       59.8482
  2484.0       98.4174
  2484.5       108.616
  2485.0       64.5975
  2485.5       27.8775
  2486.0       22.1143
  2486.5       41.4721
  2487.0       68.6297
  2487.5       106.418
  2488.0       125.529
  2488.5       106.509
  2489.0       71.1193
  2489.5       48.0212
  2490.0       42.0934
  2490.5       40.3358
  2491.0       53.8755
  2491.5        74.615
  2492.0       86.5055
  2492.5       74.6973
  2493.0       56.0607
  2493.5       64.6601
  2494.0        105.51
  2494.5       148.427
  2495.0       140.506
  2495.5       81.3904
  2496.0       45.8686
  2496.5       42.0598
  2497.0       53.0477
  2497.5       53.2077
  2498.0       45.0419
  2498.5       37.4664
  2499.0       36.7248
  2499.5       41.0952
  2500.0       42.0061
  
